Temperature (K)	Pressure (MPa)	Density (l, kg/m3)	Volume (l, m3/kg)	Internal Energy (l, kJ/kg)	Enthalpy (l, kJ/kg)	Entropy (l, J/g*K)	Cv (l, J/g*K)	Cp (l, J/g*K)	Sound Spd. (l, m/s)	Joule-Thomson (l, K/MPa)	Viscosity (l, uPa*s)	Therm. Cond. (l, W/m*K)	Surf. Tension (l, N/m)	Density (v, kg/m3)	Volume (v, m3/kg)	Internal Energy (v, kJ/kg)	Enthalpy (v, kJ/kg)	Entropy (v, J/g*K)	Cv (v, J/g*K)	Cp (v, J/g*K)	Sound Spd. (v, m/s)	Joule-Thomson (v, K/MPa)	Viscosity (v, uPa*s)	Therm. Cond. (v, W/m*K)
217.00	0.52722	1177.0	0.00084962	80.387	80.835	0.52497	0.97407	1.9542	972.89	-0.14287	254.89	0.18009	0.017058	13.995	0.071452	392.90	430.57	2.1366	0.63035	0.91121	222.83	26.040	10.973	0.011047
218.00	0.55042	1173.4	0.00085223	82.328	82.797	0.53390	0.97264	1.9566	965.66	-0.13929	250.51	0.17877	0.016808	14.584	0.068571	393.19	430.93	2.1309	0.63318	0.91743	222.94	25.714	11.027	0.011131
219.00	0.57439	1169.8	0.00085486	84.270	84.761	0.54280	0.97123	1.9591	958.43	-0.13560	246.21	0.17746	0.016559	15.191	0.065830	393.48	431.29	2.1251	0.63604	0.92380	223.05	25.396	11.081	0.011216
220.00	0.59913	1166.1	0.00085753	86.214	86.728	0.55166	0.96983	1.9618	951.21	-0.13180	242.01	0.17615	0.016310	15.817	0.063221	393.76	431.64	2.1194	0.63894	0.93032	223.15	25.084	11.135	0.011301
221.00	0.62467	1162.5	0.00086023	88.160	88.698	0.56050	0.96844	1.9646	944.00	-0.12788	237.88	0.17485	0.016062	16.464	0.060738	394.04	431.98	2.1138	0.64187	0.93701	223.23	24.779	11.190	0.011388
222.00	0.65102	1158.8	0.00086295	90.109	90.670	0.56930	0.96707	1.9676	936.79	-0.12386	233.84	0.17355	0.015815	17.131	0.058372	394.31	432.31	2.1082	0.64485	0.94386	223.31	24.480	11.244	0.011475
223.00	0.67819	1155.1	0.00086571	92.059	92.646	0.57807	0.96571	1.9707	929.58	-0.11971	229.88	0.17225	0.015569	17.820	0.056118	394.57	432.63	2.1027	0.64786	0.95088	223.38	24.186	11.299	0.011564
224.00	0.70621	1151.4	0.00086851	94.012	94.625	0.58682	0.96437	1.9739	922.37	-0.11544	226.00	0.17096	0.015324	18.530	0.053968	394.83	432.94	2.0972	0.65091	0.95807	223.44	23.899	11.354	0.011654
225.00	0.73509	1147.7	0.00087133	95.966	96.607	0.59553	0.96304	1.9774	915.16	-0.11104	222.19	0.16967	0.015080	19.261	0.051917	395.08	433.24	2.0917	0.65399	0.96545	223.49	23.617	11.409	0.011745
226.00	0.76484	1143.9	0.00087419	97.924	98.593	0.60422	0.96173	1.9809	907.95	-0.10651	218.46	0.16838	0.014836	20.016	0.049960	395.32	433.53	2.0863	0.65712	0.97302	223.52	23.341	11.465	0.011838
227.00	0.79548	1140.1	0.00087708	99.884	100.58	0.61289	0.96044	1.9847	900.74	-0.10185	214.80	0.16710	0.014594	20.794	0.048092	395.56	433.82	2.0809	0.66029	0.98078	223.55	23.070	11.521	0.011932
228.00	0.82703	1136.3	0.00088001	101.85	102.57	0.62153	0.95917	1.9886	893.53	-0.097044	211.21	0.16583	0.014352	21.595	0.046307	395.79	434.09	2.0755	0.66350	0.98875	223.57	22.805	11.576	0.012027
229.00	0.85950	1132.5	0.00088298	103.81	104.57	0.63014	0.95791	1.9927	886.31	-0.092094	207.69	0.16455	0.014111	22.421	0.044602	396.02	434.35	2.0702	0.66674	0.99693	223.58	22.544	11.633	0.012123
230.00	0.89291	1128.7	0.00088599	105.78	106.57	0.63873	0.95667	1.9970	879.09	-0.086994	204.23	0.16328	0.013871	23.271	0.042971	396.23	434.60	2.0649	0.67004	1.0053	223.57	22.288	11.689	0.012221
231.00	0.92728	1124.8	0.00088903	107.75	108.58	0.64729	0.95545	2.0014	871.86	-0.081739	200.84	0.16201	0.013632	24.147	0.041412	396.44	434.84	2.0597	0.67337	1.0139	223.56	22.037	11.746	0.012321
232.00	0.96262	1120.9	0.00089212	109.73	110.59	0.65584	0.95425	2.0061	864.63	-0.076323	197.51	0.16075	0.013394	25.050	0.039920	396.64	435.07	2.0545	0.67675	1.0228	223.54	21.790	11.803	0.012422
233.00	0.99896	1117.0	0.00089524	111.71	112.60	0.66436	0.95306	2.0109	857.39	-0.070741	194.24	0.15949	0.013157	25.979	0.038493	396.84	435.29	2.0493	0.68016	1.0319	223.50	21.548	11.860	0.012525
234.00	1.0363	1113.1	0.00089841	113.69	114.62	0.67286	0.95190	2.0160	850.14	-0.064986	191.03	0.15823	0.012920	26.936	0.037125	397.02	435.50	2.0441	0.68363	1.0412	223.46	21.311	11.918	0.012629
235.00	1.0747	1109.1	0.00090162	115.67	116.64	0.68134	0.95076	2.0212	842.88	-0.059053	187.88	0.15698	0.012685	27.921	0.035816	397.20	435.69	2.0390	0.68713	1.0509	223.40	21.077	11.976	0.012736
236.00	1.1141	1105.1	0.00090488	117.66	118.67	0.68980	0.94963	2.0267	835.61	-0.052934	184.79	0.15572	0.012451	28.935	0.034561	397.37	435.88	2.0339	0.69068	1.0608	223.33	20.848	12.034	0.012844
237.00	1.1545	1101.1	0.00090818	119.66	120.70	0.69825	0.94853	2.0324	828.32	-0.046622	181.75	0.15448	0.012217	29.978	0.033358	397.53	436.05	2.0288	0.69428	1.0709	223.26	20.622	12.093	0.012954
238.00	1.1961	1097.1	0.00091153	121.65	122.74	0.70667	0.94745	2.0384	821.02	-0.040110	178.77	0.15323	0.011985	31.052	0.032204	397.69	436.21	2.0237	0.69792	1.0814	223.17	20.401	12.152	0.013067
239.00	1.2387	1093.0	0.00091493	123.65	124.79	0.71508	0.94639	2.0445	813.71	-0.033390	175.84	0.15199	0.011753	32.158	0.031097	397.83	436.35	2.0187	0.70161	1.0922	223.07	20.183	12.212	0.013181
240.00	1.2825	1088.9	0.00091838	125.66	126.84	0.72348	0.94535	2.0510	806.38	-0.026454	172.96	0.15075	0.011523	33.295	0.030034	397.97	436.49	2.0137	0.70534	1.1033	222.96	19.969	12.272	0.013297
241.00	1.3274	1084.7	0.00092189	127.67	128.89	0.73186	0.94434	2.0577	799.03	-0.019292	170.13	0.14951	0.011293	34.466	0.029014	398.09	436.61	2.0087	0.70913	1.1147	222.84	19.759	12.332	0.013416
242.00	1.3734	1080.6	0.00092544	129.69	130.96	0.74022	0.94335	2.0647	791.67	-0.011895	167.35	0.14827	0.011065	35.670	0.028035	398.21	436.71	2.0037	0.71297	1.1265	222.70	19.552	12.393	0.013538
243.00	1.4206	1076.4	0.00092905	131.71	133.03	0.74857	0.94239	2.0719	784.28	-0.0042536	164.62	0.14704	0.010837	36.909	0.027094	398.32	436.81	1.9987	0.71686	1.1387	222.56	19.348	12.455	0.013661
244.00	1.4690	1072.1	0.00093272	133.73	135.10	0.75691	0.94145	2.0795	776.87	0.0036438	161.94	0.14581	0.010611	38.184	0.026189	398.42	436.89	1.9937	0.72081	1.1513	222.40	19.148	12.517	0.013788
245.00	1.5185	1067.9	0.00093645	135.76	137.18	0.76524	0.94054	2.0874	769.44	0.011808	159.30	0.14458	0.010385	39.496	0.025319	398.50	436.95	1.9888	0.72482	1.1643	222.24	18.950	12.579	0.013917
246.00	1.5693	1063.6	0.00094024	137.80	139.27	0.77356	0.93965	2.0956	761.97	0.020252	156.70	0.14336	0.010161	40.845	0.024483	398.58	437.00	1.9838	0.72889	1.1778	222.06	18.756	12.643	0.014049
247.00	1.6214	1059.2	0.00094409	139.84	141.37	0.78187	0.93880	2.1042	754.48	0.028988	154.15	0.14213	0.0099380	42.234	0.023678	398.64	437.03	1.9789	0.73303	1.1917	221.86	18.564	12.707	0.014184
248.00	1.6746	1054.8	0.00094801	141.89	143.48	0.79017	0.93797	2.1131	746.95	0.038029	151.64	0.14091	0.0097158	43.662	0.022903	398.70	437.05	1.9739	0.73725	1.2061	221.66	18.375	12.771	0.014323
249.00	1.7292	1050.4	0.00095199	143.94	145.59	0.79846	0.93718	2.1224	739.39	0.047390	149.17	0.13969	0.0094948	45.132	0.022157	398.74	437.06	1.9690	0.74154	1.2211	221.44	18.189	12.836	0.014465
250.00	1.7850	1046.0	0.00095605	146.00	147.71	0.80675	0.93643	2.1320	731.78	0.057087	146.74	0.13847	0.0092749	46.644	0.021439	398.77	437.04	1.9641	0.74591	1.2366	221.22	18.005	12.902	0.014610
251.00	1.8422	1041.5	0.00096018	148.07	149.84	0.81503	0.93573	2.1421	724.14	0.067136	144.34	0.13725	0.0090562	48.200	0.020747	398.79	437.01	1.9592	0.75036	1.2526	220.97	17.823	12.969	0.014759
252.00	1.9007	1036.9	0.00096438	150.15	151.98	0.82331	0.93506	2.1527	716.44	0.077553	141.99	0.13604	0.0088386	49.801	0.020080	398.80	436.97	1.9542	0.75489	1.2693	220.72	17.644	13.037	0.014912
253.00	1.9605	1032.4	0.00096866	152.23	154.13	0.83159	0.93445	2.1636	708.69	0.088358	139.67	0.13482	0.0086221	51.448	0.019437	398.80	436.90	1.9493	0.75951	1.2867	220.45	17.466	13.105	0.015069
254.00	2.0217	1027.7	0.00097303	154.32	156.28	0.83986	0.93390	2.1751	700.88	0.099570	137.39	0.13361	0.0084069	53.144	0.018817	398.78	436.82	1.9443	0.76421	1.3047	220.17	17.291	13.174	0.015230
255.00	2.0843	1023.0	0.00097748	156.41	158.45	0.84813	0.93342	2.1870	693.01	0.11121	135.14	0.13240	0.0081928	54.889	0.018219	398.75	436.72	1.9394	0.76900	1.3234	219.87	17.117	13.245	0.015396
256.00	2.1483	1018.3	0.00098201	158.52	160.63	0.85641	0.93300	2.1995	685.08	0.12330	132.93	0.13119	0.0079800	56.685	0.017641	398.70	436.60	1.9344	0.77388	1.3429	219.56	16.946	13.316	0.015567
257.00	2.2138	1013.5	0.00098664	160.63	162.81	0.86468	0.93267	2.2125	677.07	0.13586	130.75	0.12998	0.0077683	58.534	0.017084	398.64	436.46	1.9295	0.77885	1.3633	219.24	16.776	13.389	0.015743
258.00	2.2806	1008.7	0.00099136	162.75	165.01	0.87296	0.93244	2.2262	668.99	0.14891	128.61	0.12877	0.0075580	60.438	0.016546	398.56	436.30	1.9245	0.78390	1.3844	218.90	16.608	13.462	0.015925
259.00	2.3490	1003.8	0.00099619	164.88	167.22	0.88125	0.93230	2.2404	660.83	0.16250	126.49	0.12756	0.0073489	62.398	0.016026	398.47	436.12	1.9195	0.78904	1.4065	218.55	16.442	13.537	0.016112
260.00	2.4188	998.89	0.0010011	167.02	169.44	0.88954	0.93227	2.2554	652.58	0.17663	124.40	0.12635	0.0071411	64.417	0.015524	398.37	435.92	1.9144	0.79426	1.4295	218.19	16.277	13.614	0.016306
261.00	2.4901	993.89	0.0010062	169.17	171.68	0.89784	0.93236	2.2710	644.25	0.19134	122.35	0.12514	0.0069346	66.497	0.015038	398.25	435.69	1.9094	0.79958	1.4535	217.81	16.114	13.691	0.016506
262.00	2.5630	988.83	0.0010113	171.33	173.92	0.90615	0.93258	2.2874	635.84	0.20667	120.32	0.12393	0.0067295	68.640	0.014569	398.11	435.45	1.9043	0.80498	1.4787	217.41	15.952	13.770	0.016713
263.00	2.6374	983.70	0.0010166	173.50	176.18	0.91447	0.93294	2.3046	627.34	0.22265	118.32	0.12272	0.0065257	70.848	0.014115	397.95	435.18	1.8992	0.81046	1.5050	217.01	15.792	13.851	0.016928
264.00	2.7134	978.51	0.0010220	175.68	178.45	0.92280	0.93344	2.3226	618.75	0.23932	116.34	0.12152	0.0063233	73.124	0.013675	397.78	434.88	1.8941	0.81604	1.5326	216.59	15.633	13.933	0.017150
265.00	2.7909	973.25	0.0010275	177.87	180.74	0.93114	0.93408	2.3417	610.07	0.25672	114.40	0.12031	0.0061223	75.471	0.013250	397.58	434.56	1.8890	0.82172	1.5615	216.15	15.476	14.017	0.017381
266.00	2.8701	967.92	0.0010331	180.08	183.04	0.93951	0.93488	2.3617	601.31	0.27489	112.48	0.11910	0.0059228	77.891	0.012838	397.37	434.22	1.8838	0.82749	1.5919	215.70	15.319	14.103	0.017621
267.00	2.9509	962.52	0.0010389	182.29	185.36	0.94789	0.93583	2.3828	592.46	0.29389	110.58	0.11789	0.0057247	80.388	0.012440	397.14	433.85	1.8786	0.83337	1.6239	215.24	15.164	14.191	0.017871
268.00	3.0334	957.04	0.0010449	184.52	187.69	0.95629	0.93693	2.4050	583.54	0.31376	108.70	0.11668	0.0055281	82.965	0.012053	396.88	433.45	1.8733	0.83935	1.6575	214.76	15.010	14.282	0.018131
269.00	3.1175	951.48	0.0010510	186.77	190.04	0.96472	0.93818	2.4285	574.54	0.33457	106.85	0.11547	0.0053330	85.626	0.011679	396.61	433.02	1.8680	0.84546	1.6931	214.26	14.857	14.374	0.018403
270.00	3.2033	945.83	0.0010573	189.03	192.41	0.97317	0.93959	2.4534	565.46	0.35639	105.02	0.11425	0.0051394	88.374	0.011316	396.31	432.56	1.8626	0.85168	1.7307	213.75	14.704	14.469	0.018687
271.00	3.2909	940.09	0.0010637	191.30	194.80	0.98165	0.94114	2.4798	556.32	0.37927	103.22	0.11304	0.0049475	91.213	0.010963	395.99	432.06	1.8572	0.85804	1.7705	213.23	14.552	14.567	0.018983
272.00	3.3802	934.26	0.0010704	193.59	197.21	0.99017	0.94283	2.5079	547.11	0.40331	101.43	0.11183	0.0047571	94.148	0.010622	395.64	431.54	1.8517	0.86454	1.8128	212.68	14.401	14.667	0.019294
273.00	3.4713	928.33	0.0010772	195.89	199.63	0.99871	0.94465	2.5377	537.84	0.42859	99.658	0.11061	0.0045684	97.183	0.010290	395.26	430.98	1.8461	0.87119	1.8578	212.13	14.250	14.770	0.019621
274.00	3.5642	922.30	0.0010842	198.22	202.08	1.0073	0.94659	2.5694	528.51	0.45519	97.907	0.10939	0.0043814	100.32	0.0099677	394.86	430.38	1.8405	0.87801	1.9057	211.55	14.098	14.877	0.019964
275.00	3.6589	916.16	0.0010915	200.56	204.55	1.0159	0.94865	2.6033	519.14	0.48324	96.174	0.10817	0.0041961	103.58	0.0096547	394.43	429.75	1.8348	0.88500	1.9569	210.96	13.947	14.987	0.020325
276.00	3.7555	909.90	0.0010990	202.92	207.05	1.0246	0.95082	2.6396	509.71	0.51284	94.457	0.10695	0.0040126	106.95	0.0093505	393.96	429.08	1.8291	0.89218	2.0117	210.35	13.796	15.101	0.020706
277.00	3.8539	903.52	0.0011068	205.30	209.57	1.0333	0.95309	2.6785	500.23	0.54412	92.756	0.10572	0.0038310	110.44	0.0090547	393.47	428.36	1.8232	0.89957	2.0706	209.72	13.645	15.219	0.021108
278.00	3.9542	897.02	0.0011148	207.71	212.12	1.0421	0.95545	2.7203	490.72	0.57723	91.068	0.10449	0.0036511	114.07	0.0087669	392.94	427.60	1.8172	0.90719	2.1341	209.07	13.492	15.342	0.021535
279.00	4.0565	890.37	0.0011231	210.14	214.69	1.0509	0.95791	2.7654	481.15	0.61232	89.394	0.10326	0.0034732	117.83	0.0084868	392.37	426.80	1.8112	0.91504	2.2026	208.41	13.339	15.469	0.021987
280.00	4.1607	883.58	0.0011318	212.59	217.30	1.0598	0.96046	2.8141	471.54	0.64959	87.731	0.10203	0.0032973	121.74	0.0082140	391.76	425.94	1.8050	0.92316	2.2769	207.72	13.185	15.601	0.022468
281.00	4.2670	876.64	0.0011407	215.07	219.94	1.0688	0.96310	2.8670	461.89	0.68922	86.079	0.10079	0.0031234	125.81	0.0079482	391.12	425.03	1.7987	0.93157	2.3576	207.01	13.029	15.740	0.022980
282.00	4.3752	869.52	0.0011501	217.58	222.61	1.0779	0.96584	2.9246	452.19	0.73145	84.437	0.099549	0.0029516	130.05	0.0076891	390.43	424.07	1.7923	0.94029	2.4458	206.28	12.872	15.884	0.023528
283.00	4.4855	862.23	0.0011598	220.12	225.32	1.0870	0.96869	2.9876	442.44	0.77654	82.802	0.098306	0.0027820	134.48	0.0074362	389.69	423.04	1.7857	0.94935	2.5425	205.52	12.713	16.035	0.024114
284.00	4.5978	854.74	0.0011699	222.69	228.07	1.0963	0.97166	3.0569	432.63	0.82477	81.173	0.097059	0.0026146	139.09	0.0071894	388.90	421.95	1.7789	0.95878	2.6490	204.74	12.551	16.194	0.024745
285.00	4.7123	847.05	0.0011806	225.30	230.86	1.1056	0.97478	3.1333	422.75	0.87650	79.548	0.095810	0.0024495	143.92	0.0069482	388.06	420.80	1.7720	0.96864	2.7668	203.94	12.387	16.361	0.025424
286.00	4.8289	839.12	0.0011917	227.95	233.70	1.1151	0.97806	3.2181	412.81	0.93211	77.925	0.094558	0.0022868	148.98	0.0067123	387.15	419.57	1.7649	0.97895	2.8979	203.10	12.220	16.537	0.026158
287.00	4.9478	830.95	0.0012034	230.64	236.59	1.1247	0.98155	3.3127	402.77	0.99205	76.302	0.093304	0.0021266	154.29	0.0064814	386.19	418.25	1.7576	0.98977	3.0448	202.24	12.049	16.723	0.026956
288.00	5.0688	822.50	0.0012158	233.38	239.54	1.1344	0.98528	3.4189	392.63	1.0568	74.677	0.092050	0.0019690	159.87	0.0062552	385.15	416.85	1.7501	1.0012	3.2104	201.34	11.874	16.921	0.027824
289.00	5.1921	813.75	0.0012289	236.17	242.55	1.1443	0.98932	3.5389	382.37	1.1271	73.047	0.090796	0.0018141	165.75	0.0060332	384.03	415.36	1.7423	1.0132	3.3985	200.41	11.694	17.132	0.028775
290.00	5.3177	804.67	0.0012428	239.02	245.63	1.1544	0.99373	3.6756	371.95	1.2037	71.409	0.089546	0.0016620	171.96	0.0058152	382.83	413.75	1.7341	1.0260	3.6142	199.45	11.509	17.357	0.029821
291.00	5.4457	795.21	0.0012575	241.94	248.78	1.1647	0.99861	3.8325	361.34	1.2874	69.758	0.088303	0.0015130	178.55	0.0056007	381.53	412.03	1.7257	1.0396	3.8637	198.44	11.317	17.599	0.030978
292.00	5.5761	785.33	0.0012733	244.92	252.02	1.1753	1.0041	4.0145	350.49	1.3794	68.091	0.087072	0.0013671	185.55	0.0053893	380.13	410.18	1.7169	1.0543	4.1558	197.38	11.117	17.860	0.032266
293.00	5.7089	774.98	0.0012903	247.99	255.36	1.1861	1.0104	4.2283	339.35	1.4811	66.403	0.085862	0.0012245	193.03	0.0051804	378.61	408.18	1.7077	1.0701	4.5023	196.27	10.909	18.143	0.033711
294.00	5.8443	764.09	0.0013087	251.16	258.81	1.1972	1.0177	4.4834	327.85	1.5945	64.687	0.084684	0.0010855	201.06	0.0049736	376.94	406.01	1.6979	1.0872	4.9196	195.09	10.690	18.452	0.035346
295.00	5.9822	752.56	0.0013288	254.43	262.38	1.2087	1.0265	4.7939	315.91	1.7218	62.936	0.083558	0.00095021	209.72	0.0047682	375.11	403.64	1.6876	1.1060	5.4316	193.84	10.459	18.792	0.037215
296.00	6.1227	740.28	0.0013508	257.83	266.10	1.2207	1.0371	5.1813	303.44	1.8663	61.139	0.082512	0.00081907	219.14	0.0045634	373.10	401.04	1.6766	1.1269	6.0741	192.49	10.214	19.170	0.039380
297.00	6.2660	727.09	0.0013753	261.39	270.01	1.2332	1.0504	5.6799	290.31	2.0321	59.283	0.081592	0.00069238	229.46	0.0043581	370.85	398.16	1.6647	1.1505	6.9032	191.01	9.9510	19.595	0.041929
298.00	6.4121	712.77	0.0014030	265.15	274.14	1.2464	1.0675	6.3473	276.42	2.2248	57.347	0.080873	0.00057058	240.90	0.0041511	368.33	394.95	1.6518	1.1774	8.0128	189.38	9.6668	20.078	0.044993
299.00	6.5611	696.98	0.0014348	269.15	278.56	1.2605	1.0897	7.2859	261.61	2.4523	55.303	0.080473	0.00045424	253.78	0.0039404	365.45	391.30	1.6376	1.2091	9.5720	187.52	9.3556	20.639	0.048787
300.00	6.7131	679.24	0.0014722	273.49	283.38	1.2759	1.1199	8.6979	245.67	2.7258	53.107	0.080593	0.00034411	268.58	0.0037232	362.09	387.08	1.6215	1.2476	11.921	185.33	9.0093	21.306	0.053689
301.00	6.8683	658.69	0.0015182	278.32	288.75	1.2930	1.1631	11.053	228.18	3.0643	50.691	0.081612	0.00024127	286.15	0.0034947	358.05	382.05	1.6029	1.2972	15.859	182.61	8.6134	22.130	0.060462
302.00	7.0268	633.69	0.0015781	283.93	295.02	1.3130	1.2316	15.786	208.08	3.5060	47.914	0.084452	0.00014736	308.15	0.0032452	352.93	375.73	1.5802	1.3676	23.800	178.91	8.1391	23.214	0.071012
303.00	7.1890	599.86	0.0016671	291.07	303.05	1.3386	1.3702	30.233	182.14	4.1502	44.414	0.092768	6.5401e-05	339.00	0.0029499	345.67	366.87	1.5493	1.4925	47.599	172.71	7.5121	24.835	0.092355